SpectraSuite Data File
++++++++++++++++++++++++++++++++++++
Date: Wed Aug 22 18:15:59 EDT 2012
User: group
Dark Spectrum Present: No
Reference Spectrum Present: No
Number of Sampled Component Spectra: 1
Spectrometers: USB2E7196
Integration Time (usec): 79000 (USB2E7196)
Spectra Averaged: 30 (USB2E7196)
Boxcar Smoothing: 10 (USB2E7196)
Correct for Electrical Dark: No (USB2E7196)
Strobe/Lamp Enabled: No (USB2E7196)
Correct for Detector Non-linearity: No (USB2E7196)
Correct for Stray Light: No (USB2E7196)
Number of Pixels in Processed Spectrum: 2048
>>>>>Begin Processed Spectral Data<<<<<
339.09	0.00
339.48	212.90
339.86	213.90
340.24	215.20
340.63	217.37
341.01	222.20
341.39	220.33
341.78	221.07
342.16	222.87
342.54	222.63
342.93	211.56
343.31	222.24
343.69	222.80
344.07	223.29
344.46	223.74
344.84	224.17
345.22	224.36
345.60	224.64
345.99	224.90
346.37	225.07
346.75	225.23
347.13	225.35
347.52	225.51
347.90	225.64
348.28	225.71
348.66	225.81
349.05	225.80
349.43	225.87
349.81	225.96
350.19	226.01
350.57	226.05
350.96	226.13
351.34	226.23
351.72	226.30
352.10	226.46
352.48	226.59
352.87	226.63
353.25	226.67
353.63	226.76
354.01	226.79
354.39	226.89
354.77	226.97
355.15	227.05
355.54	227.06
355.92	227.07
356.30	227.13
356.68	227.37
357.06	227.41
357.44	227.47
357.82	227.57
358.20	227.76
358.58	227.84
358.97	227.90
359.35	228.01
359.73	228.13
360.11	228.18
360.49	228.23
360.87	228.28
361.25	228.41
361.63	228.50
362.01	228.56
362.39	228.60
362.77	228.68
363.15	228.72
363.53	228.81
363.91	228.88
364.29	228.95
364.67	228.77
365.05	228.86
365.43	228.89
365.81	228.98
366.19	229.06
366.57	229.19
366.95	229.24
367.33	229.24
367.71	229.25
368.09	229.29
368.47	229.36
368.85	229.37
369.23	229.33
369.61	229.19
369.99	229.27
370.37	229.26
370.75	229.34
371.13	229.34
371.51	229.25
371.89	229.21
372.27	229.23
372.65	229.24
373.03	229.23
373.41	229.23
373.78	229.13
374.16	228.95
374.54	228.87
374.92	228.85
375.30	228.86
375.68	228.87
376.06	228.89
376.44	228.79
376.82	228.80
377.19	228.83
377.57	228.86
377.95	228.77
378.33	228.69
378.71	228.55
379.09	228.52
379.47	228.61
379.84	228.54
380.22	228.48
380.60	228.41
380.98	228.40
381.36	228.41
381.73	228.35
382.11	228.42
382.49	228.33
382.87	228.26
383.25	228.22
383.62	228.44
384.00	228.36
384.38	228.37
384.76	228.34
385.13	228.33
385.51	228.35
385.89	228.37
386.27	228.41
386.64	228.35
387.02	228.28
387.40	228.23
387.78	228.32
388.15	228.34
388.53	228.31
388.91	228.30
389.29	228.28
389.66	228.39
390.04	228.36
390.42	228.43
390.79	228.45
391.17	228.41
391.55	228.11
391.92	228.11
392.30	228.13
392.68	228.12
393.05	228.15
393.43	228.15
393.81	228.18
394.18	228.16
394.56	228.25
394.94	228.35
395.31	228.32
395.69	228.40
396.06	228.43
396.44	228.54
396.82	228.57
397.19	228.71
397.57	228.66
397.95	228.77
398.32	228.76
398.70	228.83
399.07	228.99
399.45	229.10
399.82	229.16
400.20	229.26
400.58	229.38
400.95	229.40
401.33	229.57
401.70	229.75
402.08	229.88
402.45	229.99
402.83	230.21
403.20	230.40
403.58	230.54
403.95	230.77
404.33	231.02
404.71	231.23
405.08	231.52
405.46	231.79
405.83	232.03
406.21	232.40
406.58	232.82
406.96	233.15
407.33	233.61
407.70	234.16
408.08	234.79
408.45	235.31
408.83	235.94
409.20	236.56
409.58	237.11
409.95	237.88
410.33	238.72
410.70	239.50
411.08	240.46
411.45	241.42
411.82	242.43
412.20	243.50
412.57	244.83
412.95	245.94
413.32	247.34
413.69	248.77
414.07	250.31
414.44	251.92
414.82	253.69
415.19	255.64
415.56	257.62
415.94	259.73
416.31	262.12
416.68	264.59
417.06	267.31
417.43	269.95
417.81	272.97
418.18	276.08
418.55	279.41
418.93	283.02
419.30	286.73
419.67	290.60
420.04	294.75
420.42	299.01
420.79	303.93
421.16	308.96
421.54	314.05
421.91	319.36
422.28	325.02
422.66	331.00
423.03	336.77
423.40	342.89
423.77	349.41
424.15	356.22
424.52	363.10
424.89	370.66
425.26	378.17
425.64	385.41
426.01	393.23
426.38	401.45
426.75	409.65
427.13	418.23
427.50	427.26
427.87	436.74
428.24	446.30
428.61	455.52
428.99	465.56
429.36	476.61
429.73	487.44
430.10	498.03
430.47	509.04
430.85	520.64
431.22	532.89
431.59	545.91
431.96	558.46
432.33	572.57
432.70	586.15
433.08	602.15
433.45	617.03
433.82	632.03
434.19	648.83
434.56	665.27
434.93	681.44
435.30	697.51
435.68	715.23
436.05	732.84
436.42	750.45
436.79	766.69
437.16	784.37
437.53	803.16
437.90	821.90
438.27	840.33
438.64	859.39
439.01	877.21
439.38	893.24
439.75	908.71
440.13	926.16
440.50	942.75
440.87	956.52
441.24	970.52
441.61	986.07
441.98	997.72
442.35	1011.62
442.72	1025.23
443.09	1038.39
443.46	1047.00
443.83	1053.03
444.20	1058.53
444.57	1065.86
444.94	1069.89
445.31	1073.83
445.68	1077.30
446.05	1079.24
446.42	1078.60
446.79	1077.41
447.16	1075.71
447.53	1074.50
447.90	1068.41
448.27	1062.43
448.64	1053.77
449.01	1047.98
449.37	1036.72
449.74	1026.07
450.11	1012.39
450.48	997.87
450.85	983.17
451.22	970.41
451.59	958.23
451.96	946.52
452.33	931.00
452.70	916.82
453.07	899.92
453.43	882.91
453.80	866.28
454.17	849.99
454.54	834.78
454.91	818.91
455.28	803.44
455.65	788.85
456.02	773.86
456.38	761.44
456.75	745.99
457.12	733.30
457.49	720.58
457.86	708.73
458.23	698.12
458.59	686.61
458.96	674.99
459.33	664.80
459.70	654.48
460.07	646.09
460.43	636.44
460.80	627.35
461.17	619.55
461.54	611.66
461.91	604.14
462.27	596.15
462.64	589.45
463.01	582.10
463.38	574.97
463.74	568.23
464.11	562.03
464.48	556.54
464.85	550.58
465.21	545.85
465.58	541.06
465.95	535.49
466.32	530.77
466.68	526.03
467.05	521.39
467.42	516.71
467.78	511.85
468.15	507.32
468.52	503.94
468.88	499.61
469.25	495.60
469.62	492.37
469.98	489.03
470.35	485.75
470.72	482.63
471.08	479.48
471.45	476.66
471.82	473.75
472.18	470.71
472.55	468.63
472.92	466.17
473.28	463.75
473.65	461.42
474.02	459.17
474.38	457.20
474.75	455.48
475.11	453.64
475.48	452.28
475.85	451.09
476.21	449.83
476.58	448.83
476.94	448.21
477.31	447.35
477.67	446.61
478.04	446.01
478.41	445.66
478.77	445.52
479.14	445.11
479.50	444.98
479.87	445.13
480.23	445.17
480.60	445.04
480.96	445.17
481.33	445.63
481.69	446.10
482.06	446.57
482.42	447.01
482.79	447.68
483.15	448.66
483.52	449.85
483.88	450.96
484.25	452.11
484.61	453.19
484.98	454.56
485.34	456.28
485.71	458.15
486.07	460.18
486.44	462.02
486.80	464.35
487.17	466.75
487.53	469.43
487.90	472.21
488.26	475.32
488.62	478.42
488.99	481.51
489.35	484.74
489.72	488.29
490.08	492.00
490.44	495.79
490.81	499.75
491.17	503.75
491.54	508.05
491.90	512.23
492.26	517.02
492.63	521.76
492.99	526.68
493.36	531.72
493.72	537.11
494.08	542.66
494.45	548.45
494.81	554.51
495.17	560.62
495.54	567.04
495.90	573.65
496.26	580.12
496.63	586.93
496.99	593.90
497.35	601.13
497.72	608.60
498.08	616.23
498.44	623.78
498.80	631.70
499.17	639.84
499.53	648.08
499.89	656.42
500.26	664.95
500.62	673.38
500.98	682.36
501.34	691.27
501.71	700.26
502.07	709.11
502.43	718.20
502.79	727.21
503.16	736.34
503.52	745.76
503.88	755.39
504.24	765.13
504.60	775.13
504.97	784.96
505.33	794.77
505.69	805.00
506.05	815.14
506.41	825.13
506.78	835.02
507.14	845.42
507.50	855.80
507.86	866.03
508.22	876.15
508.59	886.04
508.95	896.21
509.31	906.38
509.67	916.51
510.03	926.41
510.39	936.47
510.75	946.75
511.12	956.60
511.48	966.51
511.84	976.06
512.20	985.63
512.56	995.57
512.92	1005.38
513.28	1014.73
513.64	1024.43
514.00	1033.81
514.37	1043.30
514.73	1052.40
515.09	1060.94
515.45	1069.54
515.81	1078.34
516.17	1086.98
516.53	1095.25
516.89	1103.63
517.25	1112.00
517.61	1120.78
517.97	1129.23
518.33	1136.73
518.69	1144.57
519.05	1152.46
519.41	1160.45
519.77	1167.97
520.13	1174.89
520.49	1181.76
520.85	1188.70
521.21	1195.24
521.57	1202.26
521.93	1208.40
522.29	1214.93
522.65	1221.48
523.01	1227.78
523.37	1233.98
523.73	1240.00
524.09	1245.87
524.45	1251.40
524.81	1257.24
525.17	1262.47
525.53	1267.75
525.89	1273.52
526.25	1278.68
526.61	1283.44
526.97	1288.39
527.33	1293.22
527.68	1298.55
528.04	1303.43
528.40	1308.16
528.76	1313.29
529.12	1317.83
529.48	1322.51
529.84	1326.77
530.20	1331.20
530.56	1335.47
530.91	1340.07
531.27	1344.50
531.63	1348.77
531.99	1353.54
532.35	1357.46
532.71	1361.49
533.07	1365.31
533.42	1368.47
533.78	1372.13
534.14	1376.09
534.50	1379.57
534.86	1383.80
535.21	1386.64
535.57	1390.06
535.93	1393.10
536.29	1395.72
536.65	1398.90
537.00	1402.14
537.36	1405.25
537.72	1407.88
538.08	1410.76
538.44	1412.86
538.79	1415.17
539.15	1417.77
539.51	1419.73
539.87	1421.84
540.22	1423.35
540.58	1425.74
540.94	1427.85
541.29	1429.66
541.65	1431.26
542.01	1433.23
542.37	1434.40
542.72	1435.78
543.08	1436.46
543.44	1437.58
543.79	1437.83
544.15	1437.73
544.51	1438.42
544.87	1439.29
545.22	1440.16
545.58	1441.02
545.94	1441.82
546.29	1442.68
546.65	1442.45
547.01	1442.37
547.36	1442.62
547.72	1442.93
548.07	1442.37
548.43	1442.40
548.79	1442.52
549.14	1442.41
549.50	1442.24
549.86	1442.04
550.21	1441.95
550.57	1442.32
550.92	1441.79
551.28	1441.95
551.64	1442.36
551.99	1442.09
552.35	1441.02
552.70	1440.22
553.06	1439.60
553.41	1439.30
553.77	1438.68
554.13	1438.44
554.48	1438.44
554.84	1438.35
555.19	1438.06
555.55	1438.28
555.90	1438.02
556.26	1437.56
556.61	1436.88
556.97	1435.84
557.32	1434.95
557.68	1434.07
558.03	1433.12
558.39	1432.68
558.74	1432.47
559.10	1431.77
559.45	1431.14
559.81	1431.54
560.16	1431.47
560.52	1431.22
560.87	1430.79
561.23	1429.74
561.58	1429.17
561.94	1427.89
562.29	1426.51
562.64	1425.19
563.00	1423.49
563.35	1422.11
563.71	1420.62
564.06	1419.06
564.42	1417.67
564.77	1416.47
565.12	1415.67
565.48	1415.19
565.83	1414.50
566.19	1413.53
566.54	1412.13
566.89	1410.58
567.25	1408.29
567.60	1406.44
567.96	1404.75
568.31	1402.67
568.66	1400.77
569.02	1398.86
569.37	1397.28
569.72	1395.66
570.08	1394.05
570.43	1392.25
570.78	1390.27
571.14	1388.29
571.49	1386.81
571.84	1385.08
572.20	1382.69
572.55	1380.23
572.90	1377.31
573.26	1374.72
573.61	1372.15
573.96	1369.65
574.31	1366.97
574.67	1364.81
575.02	1362.09
575.37	1358.64
575.72	1354.84
576.08	1351.59
576.43	1348.21
576.78	1344.72
577.13	1341.32
577.49	1337.87
577.84	1334.67
578.19	1331.44
578.54	1328.73
578.90	1325.47
579.25	1321.94
579.60	1318.57
579.95	1315.07
580.30	1311.58
580.66	1307.92
581.01	1303.90
581.36	1300.01
581.71	1296.33
582.06	1292.23
582.42	1288.74
582.77	1285.00
583.12	1281.77
583.47	1278.55
583.82	1275.43
584.17	1272.01
584.53	1268.56
584.88	1264.88
585.23	1261.22
585.58	1257.25
585.93	1252.69
586.28	1248.69
586.63	1244.79
586.98	1240.98
587.34	1237.53
587.69	1233.66
588.04	1230.00
588.39	1226.20
588.74	1221.91
589.09	1218.02
589.44	1213.77
589.79	1209.37
590.14	1205.67
590.49	1201.71
590.84	1197.46
591.19	1193.50
591.54	1189.39
591.89	1184.88
592.25	1180.99
592.60	1176.45
592.95	1172.49
593.30	1168.30
593.65	1163.75
594.00	1159.40
594.35	1155.81
594.70	1150.83
595.05	1146.32
595.40	1141.75
595.75	1137.20
596.10	1133.43
596.45	1129.33
596.80	1125.38
597.15	1121.18
597.50	1116.75
597.85	1112.80
598.19	1108.86
598.54	1104.43
598.89	1100.33
599.24	1096.45
599.59	1092.14
599.94	1088.25
600.29	1084.05
600.64	1080.24
600.99	1076.23
601.34	1072.62
601.69	1067.92
602.04	1064.16
602.39	1060.34
602.74	1056.56
603.08	1053.07
603.43	1048.92
603.78	1044.31
604.13	1039.75
604.48	1035.55
604.83	1031.60
605.18	1027.54
605.53	1023.24
605.87	1019.07
606.22	1015.20
606.57	1011.48
606.92	1008.03
607.27	1004.38
607.62	1000.79
607.96	996.92
608.31	993.33
608.66	989.08
609.01	984.87
609.36	980.97
609.70	977.01
610.05	972.98
610.40	968.93
610.75	965.11
611.10	961.89
611.44	958.25
611.79	954.79
612.14	950.62
612.49	946.05
612.83	941.80
613.18	937.04
613.53	932.04
613.88	926.87
614.22	921.76
614.57	916.84
614.92	912.00
615.27	907.34
615.61	902.44
615.96	897.93
616.31	893.63
616.65	889.21
617.00	884.68
617.35	879.90
617.70	875.37
618.04	870.98
618.39	866.20
618.74	861.79
619.08	856.82
619.43	852.32
619.78	848.26
620.12	844.22
620.47	840.49
620.82	836.50
621.16	832.63
621.51	828.90
621.85	825.04
622.20	821.03
622.55	816.80
622.89	812.54
623.24	808.26
623.59	804.04
623.93	799.81
624.28	795.47
624.62	791.49
624.97	787.10
625.32	782.98
625.66	779.15
626.01	775.32
626.35	771.63
626.70	767.66
627.04	763.81
627.39	759.88
627.73	756.11
628.08	752.40
628.43	748.40
628.77	744.24
629.12	739.95
629.46	735.95
629.81	732.10
630.15	728.52
630.50	724.79
630.84	721.04
631.19	717.28
631.53	713.65
631.88	709.66
632.22	706.00
632.57	702.23
632.91	698.03
633.26	694.02
633.60	690.12
633.95	686.54
634.29	682.78
634.64	679.15
634.98	674.96
635.32	671.19
635.67	667.56
636.01	664.00
636.36	660.34
636.70	657.05
637.05	653.65
637.39	650.25
637.73	646.83
638.08	643.61
638.42	640.15
638.77	636.69
639.11	633.04
639.45	629.52
639.80	625.96
640.14	622.81
640.49	619.49
640.83	616.07
641.17	612.84
641.52	609.31
641.86	605.63
642.20	602.80
642.55	599.53
642.89	596.25
643.23	592.92
643.58	590.18
643.92	586.82
644.26	583.68
644.61	580.54
644.95	577.43
645.29	574.27
645.64	571.44
645.98	568.68
646.32	566.08
646.66	563.21
647.01	560.22
647.35	557.29
647.69	554.20
648.04	551.39
648.38	548.51
648.72	545.97
649.06	543.45
649.41	540.57
649.75	537.99
650.09	535.47
650.43	533.10
650.78	530.37
651.12	527.86
651.46	525.26
651.80	522.58
652.14	519.98
652.49	517.39
652.83	514.64
653.17	511.75
653.51	509.19
653.85	506.73
654.20	504.38
654.54	501.74
654.88	499.41
655.22	496.86
655.56	494.24
655.90	491.69
656.25	489.19
656.59	486.67
656.93	484.25
657.27	481.86
657.61	479.04
657.95	476.42
658.29	473.81
658.64	471.34
658.98	468.91
659.32	466.56
659.66	464.15
660.00	461.92
660.34	459.82
660.68	457.62
661.02	455.46
661.36	453.20
661.70	451.10
662.05	448.95
662.39	447.07
662.73	445.19
663.07	443.29
663.41	441.21
663.75	439.25
664.09	437.18
664.43	435.14
664.77	433.35
665.11	431.59
665.45	429.85
665.79	428.05
666.13	426.10
666.47	424.18
666.81	422.26
667.15	420.23
667.49	418.26
667.83	416.32
668.17	414.33
668.51	412.65
668.85	410.93
669.19	409.31
669.53	407.40
669.87	405.57
670.21	403.81
670.55	402.11
670.89	400.44
671.23	398.79
671.57	397.08
671.91	395.45
672.25	393.82
672.58	392.09
672.92	390.28
673.26	388.70
673.60	387.13
673.94	385.59
674.28	384.08
674.62	382.61
674.96	380.95
675.30	379.61
675.64	378.06
675.97	376.62
676.31	374.98
676.65	373.47
676.99	372.01
677.33	370.40
677.67	368.99
678.01	367.51
678.34	366.16
678.68	364.83
679.02	363.51
679.36	362.15
679.70	360.85
680.04	359.74
680.37	358.56
680.71	357.30
681.05	356.13
681.39	354.93
681.73	353.74
682.06	352.69
682.40	351.36
682.74	350.21
683.08	349.05
683.42	347.98
683.75	346.93
684.09	345.82
684.43	344.82
684.77	343.76
685.10	342.60
685.44	341.48
685.78	340.27
686.12	339.07
686.45	337.88
686.79	336.71
687.13	335.56
687.46	334.43
687.80	333.45
688.14	332.27
688.48	331.17
688.81	330.17
689.15	329.23
689.49	328.13
689.82	327.07
690.16	325.96
690.50	324.85
690.83	323.82
691.17	322.75
691.51	321.69
691.84	320.61
692.18	319.55
692.52	318.46
692.85	317.56
693.19	316.65
693.52	315.72
693.86	314.78
694.20	313.83
694.53	312.94
694.87	312.01
695.21	311.18
695.54	310.27
695.88	309.27
696.21	308.21
696.55	307.43
696.88	306.55
697.22	305.71
697.56	304.88
697.89	304.02
698.23	303.17
698.56	302.29
698.90	301.54
699.23	300.82
699.57	300.12
699.90	299.30
700.24	298.51
700.58	297.70
700.91	296.97
701.25	296.41
701.58	295.72
701.92	294.94
702.25	294.25
702.59	293.52
702.92	292.81
703.26	292.08
703.59	291.36
703.93	290.91
704.26	290.21
704.60	289.58
704.93	288.93
705.26	288.28
705.60	287.81
705.93	287.11
706.27	286.53
706.60	285.99
706.94	285.56
707.27	284.95
707.61	284.38
707.94	283.80
708.27	283.08
708.61	282.44
708.94	281.82
709.28	281.18
709.61	280.62
709.94	280.11
710.28	279.56
710.61	278.96
710.95	278.18
711.28	277.70
711.61	277.12
711.95	276.57
712.28	275.96
712.61	275.27
712.95	274.78
713.28	274.34
713.61	273.72
713.95	273.04
714.28	272.54
714.61	272.00
714.95	271.49
715.28	270.91
715.61	270.37
715.95	269.87
716.28	269.35
716.61	268.91
716.95	268.33
717.28	267.90
717.61	267.44
717.94	266.95
718.28	266.42
718.61	265.94
718.94	265.41
719.27	264.97
719.61	264.65
719.94	264.22
720.27	263.61
720.60	263.21
720.94	262.80
721.27	262.42
721.60	262.05
721.93	261.59
722.27	261.31
722.60	260.94
722.93	260.55
723.26	260.30
723.59	259.92
723.93	259.68
724.26	259.32
724.59	259.00
724.92	258.68
725.25	258.35
725.59	258.05
725.92	257.81
726.25	257.50
726.58	257.18
726.91	256.85
727.24	256.62
727.57	256.27
727.91	255.92
728.24	255.55
728.57	255.23
728.90	255.00
729.23	254.64
729.56	254.40
729.89	254.15
730.22	253.73
730.55	253.37
730.89	253.04
731.22	252.81
731.55	252.51
731.88	252.25
732.21	252.01
732.54	251.74
732.87	251.45
733.20	251.22
733.53	250.94
733.86	250.75
734.19	250.40
734.52	250.18
734.85	250.07
735.18	249.88
735.51	249.80
735.84	249.60
736.17	249.40
736.50	249.13
736.83	249.11
737.16	248.93
737.49	248.78
737.82	248.51
738.15	248.24
738.48	248.01
738.81	247.82
739.14	247.55
739.47	247.33
739.80	247.14
740.13	246.95
740.46	246.71
740.79	246.42
741.12	246.28
741.45	246.01
741.78	245.74
742.11	245.55
742.44	245.19
742.77	244.96
743.10	244.74
743.43	244.46
743.75	244.05
744.08	244.08
744.41	243.84
744.74	243.70
745.07	243.46
745.40	243.29
745.73	243.20
746.06	243.06
746.39	242.92
746.71	242.71
747.04	242.48
747.37	242.27
747.70	242.13
748.03	241.92
748.36	241.84
748.68	241.62
749.01	241.44
749.34	241.34
749.67	241.17
750.00	240.98
750.33	241.02
750.65	240.86
750.98	240.46
751.31	240.36
751.64	240.18
751.97	240.17
752.29	240.02
752.62	239.77
752.95	239.54
753.28	239.39
753.60	239.27
753.93	239.23
754.26	239.13
754.59	238.94
754.91	238.84
755.24	238.68
755.57	238.52
755.90	238.36
756.22	238.18
756.55	238.05
756.88	237.88
757.20	237.58
757.53	237.40
757.86	237.31
758.19	237.17
758.51	237.07
758.84	236.83
759.17	236.68
759.49	236.55
759.82	236.56
760.15	236.44
760.47	236.30
760.80	236.09
761.13	236.03
761.45	235.91
761.78	235.76
762.11	235.63
762.43	235.54
762.76	235.47
763.08	235.37
763.41	235.27
763.74	235.25
764.06	235.21
764.39	235.12
764.71	234.95
765.04	234.87
765.37	234.82
765.69	234.74
766.02	234.64
766.34	234.51
766.67	234.38
767.00	234.31
767.32	234.35
767.65	234.39
767.97	234.28
768.30	234.20
768.62	234.09
768.95	234.00
769.27	233.94
769.60	233.83
769.92	233.71
770.25	233.64
770.57	233.48
770.90	233.42
771.22	233.34
771.55	233.29
771.87	233.11
772.20	232.97
772.52	233.08
772.85	233.30
773.17	233.24
773.50	233.13
773.82	233.00
774.15	232.81
774.47	232.57
774.80	232.45
775.12	232.40
775.45	232.30
775.77	232.28
776.09	232.21
776.42	232.17
776.74	232.21
777.07	232.14
777.39	232.05
777.72	231.93
778.04	231.85
778.36	231.79
778.69	231.80
779.01	231.78
779.33	231.57
779.66	231.29
779.98	231.31
780.31	231.27
780.63	231.33
780.95	231.38
781.28	231.41
781.60	231.34
781.92	231.27
782.25	231.31
782.57	231.22
782.89	231.17
783.22	231.07
783.54	230.95
783.86	230.90
784.19	230.87
784.51	230.89
784.83	230.86
785.16	230.77
785.48	230.74
785.80	230.66
786.12	230.64
786.45	230.54
786.77	230.40
787.09	230.33
787.42	230.21
787.74	230.11
788.06	230.08
788.38	230.07
788.71	230.05
789.03	229.99
789.35	229.94
789.67	229.89
789.99	229.91
790.32	229.87
790.64	229.84
790.96	229.93
791.28	229.78
791.61	229.73
791.93	229.71
792.25	229.70
792.57	229.79
792.89	229.66
793.21	229.60
793.54	229.60
793.86	229.55
794.18	229.49
794.50	229.45
794.82	229.39
795.14	229.35
795.47	229.35
795.79	229.40
796.11	229.38
796.43	229.32
796.75	229.25
797.07	229.22
797.39	229.17
797.71	229.05
798.04	229.00
798.36	228.96
798.68	228.98
799.00	228.94
799.32	228.80
799.64	228.80
799.96	228.79
800.28	228.75
800.60	228.74
800.92	228.74
801.24	228.67
801.56	228.61
801.89	228.57
802.21	228.53
802.53	228.44
802.85	228.44
803.17	228.51
803.49	228.50
803.81	228.47
804.13	228.42
804.45	228.34
804.77	228.37
805.09	228.36
805.41	228.32
805.73	228.29
806.05	228.22
806.37	228.17
806.69	228.14
807.01	228.08
807.33	228.08
807.65	228.03
807.97	228.12
808.28	228.10
808.60	228.13
808.92	228.08
809.24	228.15
809.56	228.08
809.88	227.99
810.20	227.99
810.52	228.00
810.84	227.98
811.16	228.01
811.48	227.98
811.80	228.07
812.12	228.00
812.43	228.04
812.75	228.05
813.07	228.03
813.39	228.03
813.71	228.04
814.03	228.00
814.35	227.97
814.67	227.86
814.98	227.83
815.30	227.73
815.62	227.66
815.94	227.52
816.26	227.52
816.58	227.44
816.89	227.45
817.21	227.38
817.53	227.37
817.85	227.28
818.17	227.31
818.48	227.18
818.80	227.20
819.12	227.09
819.44	227.03
819.76	227.05
820.07	227.01
820.39	226.97
820.71	227.03
821.03	226.99
821.34	226.95
821.66	227.00
821.98	227.02
822.30	226.99
822.61	227.13
822.93	227.06
823.25	227.02
823.57	226.95
823.88	226.99
824.20	226.97
824.52	227.02
824.83	226.92
825.15	226.89
825.47	226.89
825.79	226.93
826.10	226.97
826.42	226.93
826.74	227.01
827.05	226.96
827.37	226.90
827.69	226.89
828.00	226.93
828.32	226.89
828.64	226.84
828.95	226.98
829.27	226.86
829.58	226.90
829.90	226.99
830.22	227.01
830.53	226.93
830.85	226.92
831.17	226.83
831.48	226.83
831.80	226.84
832.11	226.78
832.43	226.75
832.75	226.68
833.06	226.81
833.38	226.71
833.69	226.78
834.01	226.80
834.32	226.76
834.64	226.72
834.96	226.68
835.27	226.72
835.59	226.62
835.90	226.57
836.22	226.59
836.53	226.56
836.85	226.50
837.16	226.77
837.48	226.80
837.79	226.94
838.11	226.95
838.42	226.94
838.74	226.96
839.05	226.92
839.37	226.96
839.68	226.79
840.00	226.74
840.31	226.70
840.63	226.68
840.94	226.68
841.26	226.70
841.57	226.74
841.88	226.74
842.20	226.70
842.51	226.70
842.83	226.70
843.14	226.88
843.46	226.89
843.77	226.80
844.08	226.77
844.40	226.68
844.71	226.67
845.03	226.66
845.34	226.67
845.65	226.67
845.97	226.63
846.28	226.65
846.60	226.69
846.91	226.64
847.22	226.58
847.54	226.64
847.85	226.63
848.16	226.58
848.48	226.53
848.79	226.56
849.10	226.56
849.42	226.52
849.73	226.29
850.04	226.27
850.36	226.11
850.67	226.18
850.98	226.13
851.30	226.15
851.61	226.14
851.92	226.09
852.23	226.14
852.55	226.14
852.86	226.10
853.17	226.15
853.49	226.16
853.80	226.22
854.11	226.20
854.42	226.18
854.74	226.11
855.05	226.08
855.36	226.00
855.67	226.04
855.99	226.02
856.30	226.26
856.61	226.27
856.92	226.32
857.23	226.30
857.55	226.33
857.86	226.29
858.17	226.33
858.48	226.27
858.79	226.27
859.11	226.34
859.42	226.39
859.73	226.28
860.04	226.32
860.35	226.25
860.66	226.24
860.98	226.26
861.29	226.32
861.60	226.31
861.91	226.43
862.22	226.32
862.53	226.31
862.84	226.05
863.16	226.08
863.47	225.94
863.78	225.90
864.09	225.90
864.40	225.87
864.71	225.86
865.02	225.95
865.33	225.90
865.64	225.84
865.95	225.85
866.27	226.02
866.58	226.00
866.89	226.02
867.20	226.00
867.51	225.91
867.82	225.94
868.13	226.03
868.44	225.94
868.75	226.04
869.06	226.03
869.37	226.10
869.68	226.04
869.99	226.16
870.30	226.20
870.61	226.22
870.92	226.23
871.23	226.20
871.54	226.19
871.85	226.27
872.16	226.31
872.47	226.22
872.78	226.09
873.09	226.12
873.40	226.11
873.71	226.07
874.02	226.15
874.33	226.07
874.64	226.01
874.95	226.06
875.26	226.02
875.56	226.05
875.87	226.01
876.18	225.94
876.49	226.17
876.80	226.13
877.11	226.09
877.42	226.12
877.73	226.16
878.04	226.13
878.35	226.12
878.66	226.10
878.96	226.10
879.27	226.07
879.58	226.05
879.89	226.10
880.20	226.18
880.51	226.15
880.82	226.20
881.12	226.24
881.43	226.19
881.74	226.09
882.05	226.07
882.36	226.10
882.67	226.21
882.97	225.93
883.28	225.91
883.59	225.93
883.90	225.96
884.21	225.96
884.51	225.95
884.82	225.96
885.13	225.92
885.44	225.93
885.74	225.95
886.05	225.97
886.36	225.93
886.67	225.83
886.98	225.97
887.28	225.97
887.59	225.97
887.90	226.00
888.20	226.03
888.51	226.08
888.82	226.03
889.13	226.02
889.43	226.26
889.74	226.20
890.05	226.23
890.35	226.16
890.66	226.13
890.97	226.11
891.28	226.02
891.58	226.06
891.89	226.10
892.20	226.05
892.50	226.07
892.81	226.06
893.12	226.13
893.42	226.01
893.73	226.02
894.04	225.98
894.34	225.98
894.65	226.02
894.95	225.93
895.26	225.92
895.57	226.06
895.87	225.83
896.18	225.96
896.48	225.93
896.79	225.99
897.10	226.04
897.40	226.09
897.71	226.14
898.01	226.14
898.32	226.15
898.63	226.17
898.93	226.21
899.24	226.18
899.54	226.16
899.85	226.14
900.15	226.12
900.46	226.09
900.76	226.10
901.07	226.03
901.38	226.13
901.68	226.18
901.99	226.06
902.29	226.01
902.60	225.94
902.90	225.92
903.21	225.93
903.51	225.90
903.82	225.87
904.12	225.88
904.43	225.89
904.73	225.88
905.03	225.95
905.34	226.09
905.64	226.12
905.95	226.11
906.25	226.14
906.56	226.19
906.86	226.24
907.17	226.25
907.47	226.33
907.77	226.29
908.08	226.25
908.38	226.23
908.69	226.35
908.99	226.42
909.30	226.43
909.60	226.37
909.90	226.38
910.21	226.38
910.51	226.39
910.81	226.35
911.12	226.37
911.42	226.29
911.73	226.04
912.03	226.04
912.33	226.10
912.64	226.05
912.94	225.98
913.24	225.97
913.55	225.93
913.85	225.90
914.15	225.88
914.46	225.91
914.76	225.91
915.06	225.85
915.37	225.74
915.67	225.75
915.97	225.78
916.27	225.71
916.58	225.73
916.88	225.69
917.18	225.64
917.49	225.79
917.79	225.83
918.09	225.85
918.39	225.87
918.70	225.89
919.00	225.95
919.30	226.07
919.60	226.04
919.91	226.03
920.21	226.08
920.51	226.08
920.81	226.05
921.12	226.07
921.42	226.07
921.72	226.14
922.02	226.16
922.32	226.20
922.63	226.27
922.93	226.35
923.23	226.40
923.53	226.45
923.83	226.29
924.13	226.30
924.44	226.29
924.74	226.32
925.04	226.29
925.34	226.18
925.64	226.07
925.94	226.10
926.24	226.23
926.55	226.20
926.85	226.20
927.15	226.18
927.45	226.16
927.75	226.12
928.05	226.15
928.35	226.16
928.65	226.19
928.95	226.15
929.26	226.07
929.56	226.09
929.86	226.08
930.16	226.07
930.46	226.07
930.76	226.07
931.06	226.00
931.36	225.98
931.66	226.10
931.96	226.12
932.26	226.11
932.56	226.00
932.86	226.01
933.16	226.00
933.46	225.97
933.76	225.94
934.06	226.02
934.36	226.01
934.66	225.93
934.96	225.85
935.26	225.89
935.56	225.92
935.86	225.84
936.16	225.78
936.46	225.74
936.76	225.71
937.06	225.74
937.36	225.75
937.66	225.76
937.96	225.72
938.26	225.69
938.56	225.71
938.86	225.73
939.16	225.73
939.46	225.77
939.76	225.82
940.06	225.79
940.35	225.74
940.65	225.66
940.95	225.72
941.25	225.63
941.55	225.58
941.85	225.52
942.15	225.53
942.45	225.60
942.75	225.64
943.04	225.62
943.34	225.65
943.64	225.65
943.94	225.62
944.24	225.61
944.54	225.61
944.84	225.55
945.13	225.52
945.43	225.52
945.73	225.52
946.03	225.46
946.33	225.52
946.62	225.46
946.92	225.44
947.22	225.43
947.52	225.49
947.82	225.47
948.11	225.37
948.41	225.36
948.71	225.33
949.01	225.29
949.31	225.29
949.60	225.24
949.90	225.29
950.20	225.34
950.50	225.37
950.79	225.38
951.09	225.42
951.39	225.43
951.69	225.32
951.98	225.36
952.28	225.42
952.58	225.38
952.87	225.42
953.17	225.47
953.47	225.43
953.76	225.48
954.06	225.43
954.36	225.53
954.66	225.51
954.95	225.59
955.25	225.65
955.55	225.67
955.84	225.64
956.14	225.61
956.44	225.57
956.73	225.51
957.03	225.55
957.32	225.53
957.62	225.57
957.92	225.70
958.21	225.69
958.51	225.84
958.81	225.91
959.10	225.93
959.40	226.01
959.69	226.04
959.99	226.03
960.29	226.10
960.58	226.06
960.88	226.17
961.17	226.11
961.47	226.16
961.76	226.08
962.06	226.15
962.36	226.03
962.65	226.09
962.95	226.09
963.24	226.07
963.54	226.09
963.83	226.08
964.13	226.04
964.42	225.92
964.72	225.81
965.01	225.78
965.31	225.79
965.60	225.68
965.90	225.76
966.19	225.71
966.49	225.71
966.78	225.73
967.08	225.69
967.37	225.67
967.67	225.56
967.96	225.67
968.26	225.67
968.55	225.80
968.85	225.77
969.14	225.73
969.43	225.67
969.73	225.68
970.02	225.60
970.32	225.57
970.61	225.63
970.91	225.54
971.20	225.51
971.49	225.43
971.79	225.47
972.08	225.34
972.38	225.44
972.67	225.40
972.96	225.44
973.26	225.40
973.55	225.48
973.85	225.53
974.14	225.53
974.43	225.52
974.73	225.49
975.02	225.41
975.31	225.45
975.61	225.47
975.90	225.45
976.19	225.47
976.49	225.51
976.78	225.53
977.07	225.56
977.37	225.55
977.66	225.60
977.95	225.57
978.24	225.59
978.54	225.54
978.83	225.56
979.12	225.54
979.42	225.57
979.71	225.50
980.00	225.46
980.29	225.41
980.59	225.37
980.88	225.38
981.17	225.42
981.46	225.36
981.76	225.35
982.05	225.37
982.34	225.37
982.63	225.34
982.93	225.29
983.22	225.32
983.51	225.34
983.80	225.36
984.09	225.34
984.39	225.29
984.68	225.25
984.97	225.24
985.26	225.20
985.55	225.21
985.85	225.23
986.14	225.29
986.43	225.27
986.72	225.34
987.01	225.25
987.30	225.29
987.59	225.36
987.89	225.34
988.18	225.28
988.47	225.28
988.76	225.23
989.05	225.23
989.34	225.19
989.63	225.24
989.92	225.21
990.22	225.23
990.51	225.25
990.80	225.26
991.09	225.28
991.38	225.33
991.67	225.29
991.96	225.20
992.25	225.15
992.54	225.12
992.83	225.05
993.12	225.10
993.41	225.06
993.70	225.10
993.99	225.14
994.28	225.22
994.58	225.27
994.87	225.35
995.16	225.37
995.45	225.38
995.74	225.36
996.03	225.40
996.32	225.44
996.61	225.53
996.90	225.58
997.19	225.62
997.48	225.61
997.77	225.61
998.06	225.64
998.34	225.65
998.63	225.70
998.92	225.78
999.21	225.82
999.50	225.90
999.79	225.81
1000.08	225.85
1000.37	225.85
1000.66	225.85
1000.95	225.88
1001.24	225.87
1001.53	225.89
1001.82	225.87
1002.11	225.82
1002.40	225.85
1002.68	225.91
1002.97	226.07
1003.26	226.04
1003.55	225.99
1003.84	226.03
1004.13	226.12
1004.42	226.15
1004.71	226.16
1004.99	226.07
1005.28	226.02
1005.57	225.98
1005.86	225.96
1006.15	225.91
1006.44	225.88
1006.72	225.84
1007.01	225.77
1007.30	225.77
1007.59	225.76
1007.88	225.73
1008.17	225.73
1008.45	225.70
1008.74	225.61
1009.03	225.50
1009.32	225.49
1009.60	225.57
1009.89	225.56
1010.18	225.46
1010.47	225.43
1010.76	225.38
1011.04	225.38
1011.33	225.39
1011.62	225.39
1011.91	225.43
1012.19	225.46
1012.48	225.43
1012.77	225.48
1013.05	225.60
1013.34	225.65
1013.63	225.61
1013.92	225.66
1014.20	225.62
1014.49	225.63
1014.78	225.60
1015.06	225.53
1015.35	225.49
1015.64	225.47
1015.92	225.47
1016.21	225.54
1016.50	225.56
1016.78	225.60
1017.07	225.68
1017.36	225.74
1017.64	225.72
1017.93	225.73
1018.22	225.74
1018.50	225.72
1018.79	225.67
1019.08	225.58
1019.36	225.55
1019.65	225.55
1019.93	225.54
1020.22	225.60
1020.51	225.73
1020.79	225.71
1021.08	225.60
1021.36	224.47
1021.65	225.03
1021.94	225.77
1022.22	225.27
1022.51	225.07
1022.79	225.83
1023.08	225.97
1023.36	228.73
1023.65	224.67
>>>>>End Processed Spectral Data<<<<<
